Folder: epolymer/auxdata/common

File: raman_westberry13.txt
# Numerized from Westberry et al, 2013, "Influence of Raman scattering on ocean color inversion models"
# Ratio between Rrs including Raman and Rrs without Raman
# Sun zenith angle is 30degrees
# wl(nm) chl=0.01 chl=0.02 chl=0.03 chl=0.04 chl=0.07 chl=0.1 chl=0.2 chl=0.3 chl=0.5 chl=0.7 chl=1. chl=2. chl=5.
400 2.215e-02 2.165e-02 2.151e-02 2.072e-02 1.998e-02 1.910e-02 1.849e-02 1.764e-02 1.723e-02 1.668e-02 1.706e-02 1.375e-02 9.126e-03
405 2.966e-02 2.821e-02 2.796e-02 2.729e-02 2.628e-02 2.574e-02 2.506e-02 2.476e-02 2.398e-02 2.401e-02 2.371e-02 1.882e-02 1.281e-02
410 3.179e-02 3.032e-02 2.982e-02 2.901e-02 2.813e-02 2.749e-02 2.667e-02 2.647e-02 2.571e-02 2.568e-02 2.502e-02 1.995e-02 1.412e-02
415 3.365e-02 3.207e-02 3.147e-02 3.067e-02 2.991e-02 2.923e-02 2.825e-02 2.818e-02 2.743e-02 2.735e-02 2.633e-02 2.153e-02 1.483e-02
420 3.551e-02 3.383e-02 3.312e-02 3.232e-02 3.169e-02 3.096e-02 3.003e-02 2.989e-02 2.916e-02 2.901e-02 2.765e-02 2.220e-02 1.495e-02
425 3.671e-02 3.556e-02 3.470e-02 3.387e-02 3.323e-02 3.244e-02 3.146e-02 3.101e-02 3.017e-02 2.977e-02 2.825e-02 2.248e-02 1.506e-02
430 3.671e-02 3.535e-02 3.455e-02 3.377e-02 3.294e-02 3.235e-02 3.155e-02 3.092e-02 2.993e-02 2.930e-02 2.825e-02 2.221e-02 1.506e-02
435 3.669e-02 3.509e-02 3.431e-02 3.357e-02 3.264e-02 3.221e-02 3.156e-02 3.080e-02 2.969e-02 2.883e-02 2.803e-02 2.188e-02 1.489e-02
440 3.447e-02 3.287e-02 3.224e-02 3.131e-02 3.061e-02 3.021e-02 2.953e-02 2.904e-02 2.804e-02 2.748e-02 2.564e-02 1.983e-02 1.333e-02
445 3.226e-02 3.070e-02 3.030e-02 2.929e-02 2.895e-02 2.851e-02 2.794e-02 2.778e-02 2.661e-02 2.627e-02 2.340e-02 1.793e-02 1.187e-02
450 3.345e-02 3.188e-02 3.126e-02 3.044e-02 3.026e-02 2.965e-02 2.897e-02 2.890e-02 2.742e-02 2.654e-02 2.381e-02 1.793e-02 1.143e-02
455 3.465e-02 3.306e-02 3.222e-02 3.158e-02 3.157e-02 3.079e-02 3.000e-02 3.001e-02 2.822e-02 2.680e-02 2.422e-02 1.796e-02 1.127e-02
460 4.086e-02 3.910e-02 3.800e-02 3.707e-02 3.706e-02 3.657e-02 3.586e-02 3.561e-02 3.280e-02 3.039e-02 2.708e-02 2.034e-02 1.304e-02
465 4.725e-02 4.539e-02 4.399e-02 4.281e-02 4.280e-02 4.251e-02 4.183e-02 4.125e-02 3.751e-02 3.408e-02 2.999e-02 2.254e-02 1.420e-02
470 5.168e-02 4.978e-02 4.822e-02 4.695e-02 4.662e-02 4.629e-02 4.478e-02 4.300e-02 3.849e-02 3.444e-02 3.080e-02 2.278e-02 1.437e-02
475 5.582e-02 5.387e-02 5.207e-02 5.067e-02 5.013e-02 4.969e-02 4.728e-02 4.434e-02 3.930e-02 3.480e-02 3.161e-02 2.303e-02 1.414e-02
480 5.996e-02 5.777e-02 5.592e-02 5.438e-02 5.329e-02 5.230e-02 4.853e-02 4.491e-02 3.906e-02 3.516e-02 3.093e-02 2.272e-02 1.391e-02
485 6.410e-02 6.167e-02 5.978e-02 5.809e-02 5.635e-02 5.474e-02 4.925e-02 4.515e-02 3.860e-02 3.544e-02 3.009e-02 2.223e-02 1.368e-02
490 6.723e-02 6.431e-02 6.239e-02 6.092e-02 5.756e-02 5.537e-02 4.896e-02 4.457e-02 3.814e-02 3.464e-02 2.925e-02 2.171e-02 1.315e-02
495 7.037e-02 6.690e-02 6.495e-02 6.372e-02 5.861e-02 5.598e-02 4.870e-02 4.411e-02 3.777e-02 3.388e-02 2.856e-02 2.110e-02 1.253e-02
500 7.916e-02 7.477e-02 7.187e-02 7.027e-02 6.371e-02 6.006e-02 5.114e-02 4.592e-02 3.863e-02 3.393e-02 2.869e-02 2.050e-02 1.190e-02
505 8.805e-02 8.281e-02 7.905e-02 7.717e-02 6.881e-02 6.422e-02 5.365e-02 4.785e-02 3.966e-02 3.412e-02 2.882e-02 2.031e-02 1.205e-02
510 1.018e-01 9.488e-02 9.005e-02 8.689e-02 7.781e-02 7.226e-02 5.986e-02 5.253e-02 4.277e-02 3.663e-02 3.083e-02 2.105e-02 1.219e-02
515 1.153e-01 1.070e-01 1.009e-01 9.652e-02 8.676e-02 8.008e-02 6.598e-02 5.709e-02 4.582e-02 3.896e-02 3.260e-02 2.179e-02 1.233e-02
520 1.216e-01 1.129e-01 1.066e-01 1.016e-01 9.124e-02 8.374e-02 6.852e-02 5.903e-02 4.731e-02 3.987e-02 3.287e-02 2.223e-02 1.247e-02
525 1.279e-01 1.187e-01 1.122e-01 1.066e-01 9.560e-02 8.740e-02 7.107e-02 6.098e-02 4.881e-02 4.078e-02 3.313e-02 2.223e-02 1.236e-02
530 1.307e-01 1.210e-01 1.144e-01 1.086e-01 9.736e-02 8.874e-02 7.249e-02 6.199e-02 4.960e-02 4.142e-02 3.340e-02 2.222e-02 1.224e-02
535 1.335e-01 1.234e-01 1.166e-01 1.107e-01 9.913e-02 9.011e-02 7.386e-02 6.296e-02 5.014e-02 4.187e-02 3.367e-02 2.215e-02 1.212e-02
540 1.383e-01 1.277e-01 1.206e-01 1.144e-01 1.020e-01 9.343e-02 7.523e-02 6.394e-02 5.069e-02 4.233e-02 3.402e-02 2.208e-02 1.200e-02
545 1.432e-01 1.320e-01 1.246e-01 1.180e-01 1.050e-01 9.625e-02 7.660e-02 6.491e-02 5.124e-02 4.278e-02 3.439e-02 2.200e-02 1.188e-02
550 1.480e-01 1.363e-01 1.286e-01 1.217e-01 1.079e-01 9.822e-02 7.796e-02 6.589e-02 5.179e-02 4.323e-02 3.475e-02 2.197e-02 1.177e-02
555 1.528e-01 1.406e-01 1.326e-01 1.254e-01 1.108e-01 1.002e-01 7.912e-02 6.686e-02 5.242e-02 4.363e-02 3.512e-02 2.220e-02 1.172e-02
560 1.555e-01 1.432e-01 1.348e-01 1.276e-01 1.127e-01 1.018e-01 8.028e-02 6.784e-02 5.304e-02 4.404e-02 3.548e-02 2.244e-02 1.167e-02
565 1.581e-01 1.457e-01 1.370e-01 1.298e-01 1.145e-01 1.034e-01 8.144e-02 6.881e-02 5.366e-02 4.444e-02 3.585e-02 2.267e-02 1.162e-02
570 1.608e-01 1.483e-01 1.391e-01 1.321e-01 1.163e-01 1.050e-01 8.260e-02 6.979e-02 5.429e-02 4.485e-02 3.621e-02 2.290e-02 1.157e-02
575 1.635e-01 1.508e-01 1.413e-01 1.343e-01 1.181e-01 1.067e-01 8.377e-02 7.076e-02 5.491e-02 4.540e-02 3.664e-02 2.340e-02 1.213e-02
580 1.732e-01 1.593e-01 1.493e-01 1.414e-01 1.246e-01 1.128e-01 8.860e-02 7.495e-02 5.847e-02 4.890e-02 3.896e-02 2.491e-02 1.271e-02
585 1.831e-01 1.685e-01 1.577e-01 1.489e-01 1.313e-01 1.189e-01 9.343e-02 7.951e-02 6.222e-02 5.241e-02 4.138e-02 2.645e-02 1.347e-02
590 1.955e-01 1.798e-01 1.684e-01 1.593e-01 1.401e-01 1.270e-01 1.002e-01 8.520e-02 6.678e-02 5.608e-02 4.546e-02 2.903e-02 1.511e-02
595 2.079e-01 1.910e-01 1.788e-01 1.694e-01 1.488e-01 1.352e-01 1.070e-01 9.085e-02 7.126e-02 5.943e-02 4.946e-02 3.147e-02 1.651e-02
600 2.044e-01 1.877e-01 1.756e-01 1.664e-01 1.467e-01 1.329e-01 1.053e-01 8.929e-02 7.025e-02 5.943e-02 4.884e-02 3.189e-02 1.660e-02
605 2.009e-01 1.845e-01 1.725e-01 1.633e-01 1.445e-01 1.304e-01 1.035e-01 8.773e-02 6.925e-02 5.943e-02 4.822e-02 3.215e-02 1.669e-02
610 1.973e-01 1.813e-01 1.693e-01 1.602e-01 1.414e-01 1.279e-01 1.017e-01 8.616e-02 6.824e-02 5.791e-02 4.759e-02 3.152e-02 1.678e-02
615 1.939e-01 1.781e-01 1.662e-01 1.572e-01 1.383e-01 1.254e-01 9.995e-02 8.460e-02 6.724e-02 5.651e-02 4.697e-02 3.088e-02 1.678e-02
620 1.927e-01 1.768e-01 1.648e-01 1.556e-01 1.367e-01 1.237e-01 9.816e-02 8.303e-02 6.623e-02 5.584e-02 4.634e-02 3.067e-02 1.678e-02
625 1.915e-01 1.756e-01 1.635e-01 1.541e-01 1.351e-01 1.220e-01 9.659e-02 8.155e-02 6.526e-02 5.517e-02 4.576e-02 3.075e-02 1.678e-02
630 1.952e-01 1.777e-01 1.653e-01 1.557e-01 1.363e-01 1.229e-01 9.708e-02 8.198e-02 6.563e-02 5.517e-02 4.604e-02 3.082e-02 1.678e-02
635 1.989e-01 1.800e-01 1.672e-01 1.576e-01 1.375e-01 1.239e-01 9.757e-02 8.267e-02 6.594e-02 5.547e-02 4.632e-02 3.090e-02 1.717e-02
640 2.014e-01 1.823e-01 1.691e-01 1.594e-01 1.386e-01 1.250e-01 9.806e-02 8.352e-02 6.617e-02 5.577e-02 4.661e-02 3.097e-02 1.763e-02
645 2.039e-01 1.846e-01 1.711e-01 1.613e-01 1.398e-01 1.260e-01 9.855e-02 8.437e-02 6.652e-02 5.607e-02 4.689e-02 3.127e-02 1.810e-02
650 2.169e-01 1.953e-01 1.809e-01 1.700e-01 1.469e-01 1.322e-01 1.030e-01 8.764e-02 6.954e-02 5.873e-02 4.915e-02 3.288e-02 1.857e-02
655 2.295e-01 2.059e-01 1.903e-01 1.790e-01 1.540e-01 1.385e-01 1.074e-01 9.081e-02 7.229e-02 6.109e-02 5.101e-02 3.410e-02 1.904e-02
660 2.258e-01 2.022e-01 1.864e-01 1.748e-01 1.500e-01 1.343e-01 1.039e-01 8.776e-02 6.970e-02 5.884e-02 4.916e-02 3.273e-02 1.894e-02
665 2.221e-01 1.985e-01 1.825e-01 1.704e-01 1.460e-01 1.302e-01 1.004e-01 8.477e-02 6.712e-02 5.663e-02 4.744e-02 3.142e-02 1.880e-02
670 2.238e-01 1.996e-01 1.831e-01 1.709e-01 1.461e-01 1.301e-01 1.003e-01 8.437e-02 6.669e-02 5.615e-02 4.719e-02 3.186e-02 1.866e-02
675 2.255e-01 2.007e-01 1.837e-01 1.713e-01 1.463e-01 1.299e-01 1.002e-01 8.398e-02 6.640e-02 5.602e-02 4.694e-02 3.230e-02 1.852e-02
680 2.329e-01 2.069e-01 1.893e-01 1.764e-01 1.500e-01 1.333e-01 1.023e-01 8.597e-02 6.789e-02 5.704e-02 4.755e-02 3.274e-02 1.881e-02
685 2.405e-01 2.134e-01 1.949e-01 1.816e-01 1.540e-01 1.368e-01 1.045e-01 8.804e-02 6.904e-02 5.806e-02 4.834e-02 3.319e-02 1.918e-02
690 2.426e-01 2.152e-01 1.968e-01 1.831e-01 1.555e-01 1.381e-01 1.060e-01 8.923e-02 6.978e-02 5.909e-02 4.914e-02 3.375e-02 1.954e-02
695 2.446e-01 2.169e-01 1.987e-01 1.847e-01 1.570e-01 1.393e-01 1.074e-01 9.042e-02 7.053e-02 6.006e-02 4.988e-02 3.423e-02 1.986e-02
700 2.391e-01 2.119e-01 1.941e-01 1.806e-01 1.537e-01 1.370e-01 1.045e-01 8.826e-02 6.943e-02 5.894e-02 4.904e-02 3.356e-02 2.008e-02